{
  "resourceType": "Bundle",
  "type": "message",
  "entry": [
    {
      "fullUrl": "MessageHeader/ohie-cr-07-10-fhir",
      "resource": {
        "resourceType": "MessageHeader",
        "id": "1",
        "eventUri": "urn:ihe:iti:pmir:2019:patient-feed",
        "source": {
          "endpoint": "http://ohie.org/test/test_harness"
        },
        "focus": [
          {
            "reference": "Bundle/ohie-cr-07-10-fhir"
          }
        ],
        "destination": [
          {
            "endpoint": "http://ohie.org/test/endpoint/Bundle"
          }
        ]
      }
    },
    {
      "fullUrl": "http://test.ohie.org/fhir/Bundle/ohie-cr-07-10-fhir",
      "resource": {
        "resourceType": "Bundle",
        "type": "history",
        "entry": [
          {
            "fullUrl": "http://test.ohie.org/fhir/Organization/ohie-cr-07-10-fhir-acme",
            "resource": {
              "resourceType": "Organization",
              "id": "ohie-cr-07-10-fhir-acme",
              "identifier": [
                {
                  "use": "usual",
                  "system": "http://ohie.org/test/orgs",
                  "value": "FHR-072"
                }
              ],
              "name": "ACME Insurance Providers Corp.",
              "address": [
                {
                  "use": "work",
                  "type": "physical",
                  "text": "321 James St. North Hamilton, Ontario, Canada, L8K5X2",
                  "line": [
                    "321 James St. North"
                  ],
                  "city": "Hamilton",
                  "state": "ON",
                  "postalCode": "L8K5X2",
                  "country": "CA"
                }
              ]
            },
            "request": {
              "method": "POST",
              "url": "Organization/ohie-cr-07-fhir-acme"
            }
          },
          {
            "fullUrl": "http://test.ohie.org/fhir/Organization/ohie-cr-07-fhir-mgr",
            "resource": {
              "resourceType": "Organization",
              "id": "ohie-cr-07-fhir-mgr",
              "identifier": [
                {
                  "use": "usual",
                  "system": "http://ohie.org/test/orgs",
                  "value": "FHR-073"
                }
              ],
              "name": "University Medical Centre"
            },
            "request": {
              "method": "POST",
              "url": "Organization/ohie-cr-07-fhir-mgr"
            }
          },
          {
            "fullUrl": "http://test.ohie.org/fhir/Practitioner/ohie-cr-07-fhir-pract",
            "resource": {
              "resourceType": "Practitioner",
              "id": "ohie-cr-07-fhir-pract",
              "identifier": [
                {
                  "use": "usual",
                  "system": "http://ohie.org/test/practs",
                  "value": "FHR-074"
                }
              ],
              "name": [
                {
                  "use": "usual",
                  "family": "Profile",
                  "prefix": [ "Dr" ]
                }
              ],
              "telecom": [
                {
                  "system": "phone",
                  "value": "+19054854858",
                  "use": "mobile"
                }
              ],
              "address": [
                {
                  "use": "work",
                  "type": "both",
                  "text": "Unit 493, 5 West 9th Ave. Grimsby, Ontario, Canada",
                  "line": [
                    "5 West 9th Ave.",
                    "Unit 493"
                  ],
                  "city": "Grimsby",
                  "state": "ON",
                  "postalCode": "L4N3N4",
                  "country": "CA"
                }
              ]
            },
            "request": {
              "method": "POST",
              "url": "Practitioner/ohie-cr-07-fhir-pract"
            }
          },
          {
            "fullUrl": "http://test.ohie.org/fhir/Patient/ohie-cr-07-10-fhir-flyn",
            "resource": {
              "resourceType": "Patient",
              "id": "ohie-cr-07-10-fhir-flyn",
              "active": true,
              "identifier": [
                {
                  "use": "official",
                  "system": "http://ohie.org/test/test",
                  "value": "FHR-070"
                }
              ],
              "name": [
                {
                  "use": "official",
                  "family": "Profile",
                  "given": [
                    "Flynn",
                    "Full"
                  ],
                  "prefix": [ "Dr" ],
                  "suffix": [ "III" ]
                },
                {
                  "use": "usual",
                  "family": "Profile",
                  "prefix": [ "Dr" ]
                }
              ],
              "address": [
                {
                  "use": "home",
                  "type": "both",
                  "text": "123 Ontario St. Beamsville, Lincoln County, Ontario, Canada, L0R2A0",
                  "line": [
                    "123 Ontario St",
                    "Unit 32"
                  ],
                  "city": "Beamsville",
                  "district": "Lincoln County",
                  "state": "ON",
                  "postalCode": "L0R2A0",
                  "country": "CA"
                }
              ],
              "telecom": [
                {
                  "system": "phone",
                  "value": "+12039203099",
                  "use": "work"
                },
                {
                  "system": "phone",
                  "value": "+10293829343",
                  "use": "mobile"
                },
                {
                  "system": "email",
                  "value": "flynn@ohie.org",
                  "use": "home"
                }
              ],
              "gender": "male",
              "birthDate": "1982-03-02",
              "maritalStatus": {
                "coding": [
                  {
                    "system": "http://terminology.hl7.org/CodeSystem/v3-MaritalStatus",
                    "code": "M",
                    "display": "Married"
                  }
                ]
              },
              "multipleBirthBoolean": true,
              "contact": [
                {
                  "relationship": [
                    {
                      "coding": [
                        {
                          "system": "http://terminology.hl7.org/CodeSystem/v2-0131",
                          "code": "C"
                        }
                      ]
                    },
                    {
                      "coding": [
                        {
                          "system": "http://terminology.hl7.org/CodeSystem/v2-0131",
                          "code": "N"
                        }
                      ]
                    }
                  ],
                  "name": {
                    "use": "usual",
                    "family": "Profile",
                    "given": [
                      "Allison"
                    ]
                  },
                  "address": {
                    "use": "home",
                    "type": "both",
                    "text": "123 Ontario St. Beamsville, Lincoln County, Ontario, Canada, L0R2A0",
                    "line": [
                      "123 Ontario St",
                      "Unit 32"
                    ],
                    "city": "Beamsville",
                    "district": "Lincoln County",
                    "state": "ON",
                    "postalCode": "L0R2A0",
                    "country": "CA"
                  },
                  "telecom": [
                    {
                      "system": "phone",
                      "value": "+13049303940",
                      "use": "mobile"
                    }
                  ]
                },
                {
                  "relationship": [
                    {
                      "coding": [
                        {
                          "system": "http://terminology.hl7.org/CodeSystem/v2-0131",
                          "code": "I"
                        }
                      ]
                    }
                  ],
                  "organization": {
                    "reference": "http://test.ohie.org/fhir/Organization/ohie-cr-07-10-fhir-acme",
                    "display": "ACME Insurance Corp."
                  }
                }
              ],
              "communication": [
                {
                  "language": {
                    "coding": [
                      {
                        "system": "urn:ietf:bcp:47",
                        "code": "en",
                        "display": "English"
                      }
                    ]
                  },
                  "preferred": true
                },
                {
                  "language": {
                    "coding": [
                      {
                        "system": "urn:ietf:bcp:47",
                        "code": "fr",
                        "display": "French"
                      }
                    ]
                  },
                  "preferred": false
                }
              ],
              "generalPractitioner": {
                "reference": "http://test.ohie.org/fhir/Practitioner/ohie-cr-07-fhir-pract",
                "display": "Dr. Andrew Fudd"
              },
              "managingOrganization": {
                "reference": "http://test.ohie.org/fhir/Organization/ohie-cr-07-fhir-mgr",
                "display": "University Medical Centre"
              }
            },
            "request": {
              "method": "POST",
              "url": "Patient/ohie-cr-01-10-fhir-flyn"
            }
          },
          {
            "fullUrl": "http://test.ohie.org/fhir/RelatedPerson/ohie-cr-07-10-fhir-wife",
            "resource": {
              "resourceType": "RelatedPerson",
              "id": "ohie-cr-07-10-fhir-wife",
              "identifier": [
                {
                  "use": "usual",
                  "system": "http://ohie.org/test/test",
                  "value": "FHR-071"
                },
                {
                  "use": "usual",
                  "system": "http://ohie.org/test/nid",
                  "value": "NID071"
                }
              ],
              "patient": {
                "reference": "http://test.ohie.org/fhir/Patient/ohie-cr-07-10-fhir-flyn"
              },
              "relationship": [
                {
                  "coding": [
                    {
                      "system": "http://terminology.hl7.org/CodeSystem/v3-RoleCode",
                      "code": "WIFE"
                    }
                  ]
                }
              ],
              "name": {
                "use": "usual",
                "family": "Profile",
                "given": [
                  "Allison"
                ]
              },
              "address": [
                {
                  "use": "home",
                  "type": "both",
                  "text": "123 Ontario St. Beamsville, Lincoln County, Ontario, Canada, L0R2A0",
                  "line": [
                    "123 Ontario St",
                    "Unit 32"
                  ],
                  "city": "Beamsville",
                  "district": "Lincoln County",
                  "state": "ON",
                  "postalCode": "L0R2A0",
                  "country": "CA"
                }
              ],
              "telecom": [
                {
                  "system": "phone",
                  "value": "+13049303940",
                  "use": "mobile"
                }
              ],
              "birthDate": "1985-05-10",
              "gender": "female"
            },
            "request": {
              "method": "POST",
              "url": "RelatedPerson/ohie-cr-07-10-fhir-wife"
            }
          }

        ]
      }
    }
  ]
}